Folder: tiles

File: tiles_tensile.csv
w_c,nca,cca_fine_mod,cca_dens,cca_abs_cap ,cca_spec_gr,cca,cca_rep_perc,cfa_mean_part_size,cfa_nfa,cfa_rep_perc, nfa_nfa,age,ft
0.4,64.26,0,0,0,0,0,0,0,0,0,45.68,14,1.44623
0.4,64.26,0,0,0,0,0,0,0,0,0,45.68,14,1.57547
0.4,64.26,0,0,0,0,0,0,0,0,0,45.68,14,1.42035
0.4,64.26,0,0,0,0,0,0,0,0,0,45.68,28,2.34811
0.4,64.26,0,0,0,0,0,0,0,0,0,45.68,28,2.40657
0.4,64.26,0,0,0,0,0,0,0,0,0,45.68,28,2.29528
0.4,64.26,0,0,0,0,0,0,0,0,0,45.68,60,2.35849
0.4,64.26,0,0,0,0,0,0,0,0,0,45.68,60,2.35849
0.4,64.26,0,0,0,0,0,0,0,0,0,45.68,60,2.7044
0.45,57.83,5.5,1114.15,14.23,1.92,6.42,10,0,0,0,45.68,14,1.36447
0.45,57.83,5.5,1114.15,14.23,1.92,6.42,10,0,0,0,45.68,14,3.13774
0.45,57.83,5.5,1114.15,14.23,1.92,6.42,10,0,0,0,45.68,14,1.56195
0.45,57.83,5.5,1114.15,14.23,1.92,6.42,10,0,0,0,45.68,28,3.14219
0.45,57.83,5.5,1114.15,14.23,1.92,6.42,10,0,0,0,45.68,28,2.52801
0.45,57.83,5.5,1114.15,14.23,1.92,6.42,10,0,0,0,45.68,28,3.04884
0.45,57.83,5.5,1114.15,14.23,1.92,6.42,10,0,0,0,45.68,60,3.14465
0.45,57.83,5.5,1114.15,14.23,1.92,6.42,10,0,0,0,45.68,60,3.33333
0.45,57.83,5.5,1114.15,14.23,1.92,6.42,10,0,0,0,45.68,60,3.14465
0.42,51.41,5.5,1114.15,14.23,1.92,12.85,20,0,0,0,45.68,14,2.60106
0.42,51.41,5.5,1114.15,14.23,1.92,12.85,20,0,0,0,45.68,14,3.14893
0.42,51.41,5.5,1114.15,14.23,1.92,12.85,20,0,0,0,45.68,14,1.53875
0.42,51.41,5.5,1114.15,14.23,1.92,12.85,20,0,0,0,45.68,28,3.04884
0.42,51.41,5.5,1114.15,14.23,1.92,12.85,20,0,0,0,45.68,28,2.40664
0.42,51.41,5.5,1114.15,14.23,1.92,12.85,20,0,0,0,45.68,28,3.77849
0.42,51.41,5.5,1114.15,14.23,1.92,12.85,20,0,0,0,45.68,60,3.56069
0.42,51.41,5.5,1114.15,14.23,1.92,12.85,20,0,0,0,45.68,60,3.34119
0.42,51.41,5.5,1114.15,14.23,1.92,12.85,20,0,0,0,45.68,60,3.33208
0.44,44.98,5.5,1114.15,14.23,1.92,19.27,30,0,0,0,45.68,14,2.02925
0.44,44.98,5.5,1114.15,14.23,1.92,19.27,30,0,0,0,45.68,14,2.26604
0.44,44.98,5.5,1114.15,14.23,1.92,19.27,30,0,0,0,45.68,14,2.32893
0.44,44.98,5.5,1114.15,14.23,1.92,19.27,30,0,0,0,45.68,28,3.42865
0.44,44.98,5.5,1114.15,14.23,1.92,19.27,30,0,0,0,45.68,28,2.02339
0.44,44.98,5.5,1114.15,14.23,1.92,19.27,30,0,0,0,45.68,28,3.17657
0.44,44.98,5.5,1114.15,14.23,1.92,19.27,30,0,0,0,45.68,60,3.45912
0.44,44.98,5.5,1114.15,14.23,1.92,19.27,30,0,0,0,45.68,60,3.35597
0.44,44.98,5.5,1114.15,14.23,1.92,19.27,30,0,0,0,45.68,60,3.37296
0.44,38.55,5.5,1114.15,14.23,1.92,25.7,40,0,0,0,45.68,14,2.89701
0.44,38.55,5.5,1114.15,14.23,1.92,25.7,40,0,0,0,45.68,14,2.7442
0.44,38.55,5.5,1114.15,14.23,1.92,25.7,40,0,0,0,45.68,14,2.24843
0.44,38.55,5.5,1114.15,14.23,1.92,25.7,40,0,0,0,45.68,28,3.18151
0.44,38.55,5.5,1114.15,14.23,1.92,25.7,40,0,0,0,45.68,28,3.41821
0.44,38.55,5.5,1114.15,14.23,1.92,25.7,40,0,0,0,45.68,28,3.5589
0.44,38.55,5.5,1114.15,14.23,1.92,25.7,40,0,0,0,45.68,60,3.00818
0.44,38.55,5.5,1114.15,14.23,1.92,25.7,40,0,0,0,45.68,60,3.05755
0.44,38.55,5.5,1114.15,14.23,1.92,25.7,40,0,0,0,45.68,60,2.98585
0.43,32.13,5.5,1114.15,14.23,1.92,32.13,50,0,0,0,45.68,14,2.055
0.43,32.13,5.5,1114.15,14.23,1.92,32.13,50,0,0,0,45.68,14,2.29112
0.43,32.13,5.5,1114.15,14.23,1.92,32.13,50,0,0,0,45.68,14,2.35871
0.43,32.13,5.5,1114.15,14.23,1.92,32.13,50,0,0,0,45.68,28,2.95843
0.43,32.13,5.5,1114.15,14.23,1.92,32.13,50,0,0,0,45.68,28,2.70882
0.43,32.13,5.5,1114.15,14.23,1.92,32.13,50,0,0,0,45.68,28,2.96777
0.43,32.13,5.5,1114.15,14.23,1.92,32.13,50,0,0,0,45.68,60,2.98742
0.43,32.13,5.5,1114.15,14.23,1.92,32.13,50,0,0,0,45.68,60,3.08931
0.43,32.13,5.5,1114.15,14.23,1.92,32.13,50,0,0,0,45.68,60,3.14465
0.4,57.83,5.5,1114.15,14.23,1.92,6.42,10,56.84,4.56,10,41.12,14,2.25063
0.4,57.83,5.5,1114.15,14.23,1.92,6.42,10,56.84,4.56,10,41.12,14,2.35849
0.4,57.83,5.5,1114.15,14.23,1.92,6.42,10,56.84,4.56,10,41.12,14,2.20126
0.4,57.83,5.5,1114.15,14.23,1.92,6.42,10,56.84,4.56,10,41.12,28,2.8577
0.4,57.83,5.5,1114.15,14.23,1.92,6.42,10,56.84,4.56,10,41.12,28,2.7673
0.4,57.83,5.5,1114.15,14.23,1.92,6.42,10,56.84,4.56,10,41.12,28,2.73585
0.4,57.83,5.5,1114.15,14.23,1.92,6.42,10,56.84,4.56,10,41.12,60,3.08176
0.4,57.83,5.5,1114.15,14.23,1.92,6.42,10,56.84,4.56,10,41.12,60,3.14465
0.4,57.83,5.5,1114.15,14.23,1.92,6.42,10,56.84,4.56,10,41.12,60,3.24686
0.41,51.41,5.5,1114.15,14.23,1.92,12.85,20,56.84,4.56,10,41.12,14,2.6
0.41,51.41,5.5,1114.15,14.23,1.92,12.85,20,56.84,4.56,10,41.12,14,2.7
0.41,51.41,5.5,1114.15,14.23,1.92,12.85,20,56.84,4.56,10,41.12,14,2.5
0.41,51.41,5.5,1114.15,14.23,1.92,12.85,20,56.84,4.56,10,41.12,28,2.86
0.41,51.41,5.5,1114.15,14.23,1.92,12.85,20,56.84,4.56,10,41.12,28,2.8
0.41,51.41,5.5,1114.15,14.23,1.92,12.85,20,56.84,4.56,10,41.12,28,3
0.41,51.41,5.5,1114.15,14.23,1.92,12.85,20,56.84,4.56,10,41.12,60,4.62214
0.41,51.41,5.5,1114.15,14.23,1.92,12.85,20,56.84,4.56,10,41.12,60,2.26808
0.41,51.41,5.5,1114.15,14.23,1.92,12.85,20,56.84,4.56,10,41.12,60,4.07182
0.42,44.98,5.5,1114.15,14.23,1.92,19.27,30,56.84,4.56,10,41.12,14,2
0.42,44.98,5.5,1114.15,14.23,1.92,19.27,30,56.84,4.56,10,41.12,14,2
0.42,44.98,5.5,1114.15,14.23,1.92,19.27,30,56.84,4.56,10,41.12,14,2
0.42,44.98,5.5,1114.15,14.23,1.92,19.27,30,56.84,4.56,10,41.12,28,1.91185
0.42,44.98,5.5,1114.15,14.23,1.92,19.27,30,56.84,4.56,10,41.12,28,2.57616
0.42,44.98,5.5,1114.15,14.23,1.92,19.27,30,56.84,4.56,10,41.12,28,2.74175
0.42,44.98,5.5,1114.15,14.23,1.92,19.27,30,56.84,4.56,10,41.12,60,3.14843
0.42,44.98,5.5,1114.15,14.23,1.92,19.27,30,56.84,4.56,10,41.12,60,2.98742
0.42,44.98,5.5,1114.15,14.23,1.92,19.27,30,56.84,4.56,10,41.12,60,3.00503
0.45,38.55,5.5,1114.15,14.23,1.92,25.7,40,56.84,4.56,10,41.12,14,1.69811
0.45,38.55,5.5,1114.15,14.23,1.92,25.7,40,56.84,4.56,10,41.12,14,1.7945
0.45,38.55,5.5,1114.15,14.23,1.92,25.7,40,56.84,4.56,10,41.12,14,1.72629
0.45,38.55,5.5,1114.15,14.23,1.92,25.7,40,56.84,4.56,10,41.12,28,2.01321
0.45,38.55,5.5,1114.15,14.23,1.92,25.7,40,56.84,4.56,10,41.12,28,2.1044
0.45,38.55,5.5,1114.15,14.23,1.92,25.7,40,56.84,4.56,10,41.12,28,1.91918
0.45,38.55,5.5,1114.15,14.23,1.92,25.7,40,56.84,4.56,10,41.12,60,2.48491
0.45,38.55,5.5,1114.15,14.23,1.92,25.7,40,56.84,4.56,10,41.12,60,2.76761
0.45,38.55,5.5,1114.15,14.23,1.92,25.7,40,56.84,4.56,10,41.12,60,2.82233
0.43,57.83,5.5,1114.15,14.23,1.92,6.42,10,56.84,9.13,20,36.55,14,1.39088
0.43,57.83,5.5,1114.15,14.23,1.92,6.42,10,56.84,9.13,20,36.55,14,1.47642
0.43,57.83,5.5,1114.15,14.23,1.92,6.42,10,56.84,9.13,20,36.55,14,1.57233
0.43,57.83,5.5,1114.15,14.23,1.92,6.42,10,56.84,9.13,20,36.55,28,1.79088
0.43,57.83,5.5,1114.15,14.23,1.92,6.42,10,56.84,9.13,20,36.55,28,1.86887
0.43,57.83,5.5,1114.15,14.23,1.92,6.42,10,56.84,9.13,20,36.55,28,1.82075
0.43,57.83,5.5,1114.15,14.23,1.92,6.42,10,56.84,9.13,20,36.55,60,2.29843
0.43,57.83,5.5,1114.15,14.23,1.92,6.42,10,56.84,9.13,20,36.55,60,2.15912
0.43,57.83,5.5,1114.15,14.23,1.92,6.42,10,56.84,9.13,20,36.55,60,2.04403
0.44,51.41,5.5,1114.15,14.23,1.92,12.85,20,56.84,9.13,20,36.55,14,1.57233
0.44,51.41,5.5,1114.15,14.23,1.92,12.85,20,56.84,9.13,20,36.55,14,1.72956
0.44,51.41,5.5,1114.15,14.23,1.92,12.85,20,56.84,9.13,20,36.55,14,2.04403
0.44,51.41,5.5,1114.15,14.23,1.92,12.85,20,56.84,9.13,20,36.55,28,2.35849
0.44,51.41,5.5,1114.15,14.23,1.92,12.85,20,56.84,9.13,20,36.55,28,3.14465
0.44,51.41,5.5,1114.15,14.23,1.92,12.85,20,56.84,9.13,20,36.55,28,3.14465
0.44,51.41,5.5,1114.15,14.23,1.92,12.85,20,56.84,9.13,20,36.55,60,3.61635
0.44,51.41,5.5,1114.15,14.23,1.92,12.85,20,56.84,9.13,20,36.55,60,3.42767
0.44,51.41,5.5,1114.15,14.23,1.92,12.85,20,56.84,9.13,20,36.55,60,3.33333
0.44,44.98,5.5,1114.15,14.23,1.92,19.27,30,56.84,9.13,20,36.55,14,1.41509
0.44,44.98,5.5,1114.15,14.23,1.92,19.27,30,56.84,9.13,20,36.55,14,1.57233
0.44,44.98,5.5,1114.15,14.23,1.92,19.27,30,56.84,9.13,20,36.55,14,2.04403
0.44,44.98,5.5,1114.15,14.23,1.92,19.27,30,56.84,9.13,20,36.55,28,2.51572
0.44,44.98,5.5,1114.15,14.23,1.92,19.27,30,56.84,9.13,20,36.55,28,2.20126
0.44,44.98,5.5,1114.15,14.23,1.92,19.27,30,56.84,9.13,20,36.55,28,2.35849
0.44,44.98,5.5,1114.15,14.23,1.92,19.27,30,56.84,9.13,20,36.55,60,2.35849
0.44,44.98,5.5,1114.15,14.23,1.92,19.27,30,56.84,9.13,20,36.55,60,2.67296
0.44,44.98,5.5,1114.15,14.23,1.92,19.27,30,56.84,9.13,20,36.55,60,2.98742
0.44,38.55,5.5,1114.15,14.23,1.92,25.7,40,56.84,9.13,20,36.55,14,1.57233
0.44,38.55,5.5,1114.15,14.23,1.92,25.7,40,56.84,9.13,20,36.55,14,1.88679
0.44,38.55,5.5,1114.15,14.23,1.92,25.7,40,56.84,9.13,20,36.55,14,2.04403
0.44,38.55,5.5,1114.15,14.23,1.92,25.7,40,56.84,9.13,20,36.55,28,2.20126
0.44,38.55,5.5,1114.15,14.23,1.92,25.7,40,56.84,9.13,20,36.55,28,2.13836
0.44,38.55,5.5,1114.15,14.23,1.92,25.7,40,56.84,9.13,20,36.55,28,2.20126
0.44,38.55,5.5,1114.15,14.23,1.92,25.7,40,56.84,9.13,20,36.55,60,2.35849
0.44,38.55,5.5,1114.15,14.23,1.92,25.7,40,56.84,9.13,20,36.55,60,2.51572
0.44,38.55,5.5,1114.15,14.23,1.92,25.7,40,56.84,9.13,20,36.55,60,2.51572
0.44,38.55,5.5,1114.15,14.23,1.92,25.7,40,56.84,9.13,20,36.55,60,2.83019